Folder: hardware_scripts_sanjose/nimh_batttery_charge/csv

File: nimh8.csv
iMax B6 mini;Outlet A
Time [hh:mm:ss.SSS];Voltage [V];Current [A];Capacity [mAh];Temperature Ext [°C];Temperature Int [°C];BatteryRi [m?]
00:00:00.000;5.14;0.23;0;0.0;38.0;0.00
00:00:37.000;5.19;0.30;1;0.0;37.0;0.00
00:01:14.000;5.18;0.30;1;0.0;37.0;0.00
00:01:51.000;5.17;0.30;2;0.0;37.0;0.00
00:02:28.000;5.17;0.30;3;0.0;37.0;0.00
00:03:05.000;5.16;0.30;4;0.0;37.0;0.00
00:03:42.000;5.16;0.30;5;0.0;36.0;0.00
00:04:19.000;5.15;0.30;8;0.0;36.0;0.00
00:04:56.000;5.13;0.30;11;0.0;36.0;0.00
00:05:33.000;5.14;0.30;14;0.0;36.0;0.00
00:06:10.000;5.13;0.31;18;0.0;35.0;0.00
00:06:47.000;5.13;0.31;21;0.0;35.0;0.00
00:07:24.000;5.12;0.30;24;0.0;35.0;0.00
00:08:01.000;5.11;0.30;27;0.0;35.0;0.00
00:08:38.000;5.10;0.32;30;0.0;35.0;0.00
00:09:15.000;5.10;0.30;33;0.0;35.0;0.00
00:09:52.000;5.09;0.30;36;0.0;35.0;0.00
00:10:29.000;5.08;0.30;39;0.0;35.0;0.00
00:11:06.000;5.08;0.30;42;0.0;35.0;0.00
00:11:43.000;5.07;0.31;45;0.0;35.0;0.00
00:12:20.000;5.07;0.30;49;0.0;36.0;0.00
00:12:57.000;5.06;0.30;52;0.0;36.0;0.00
00:13:34.000;5.05;0.31;55;0.0;36.0;0.00
00:14:11.000;5.05;0.31;58;0.0;36.0;0.00
00:14:48.000;5.04;0.30;61;0.0;36.0;0.00
00:15:25.000;5.04;0.30;64;0.0;36.0;0.00
00:16:02.000;5.03;0.31;67;0.0;36.0;0.00
00:16:39.000;5.03;0.30;70;0.0;36.0;0.00
00:17:16.000;5.02;0.30;74;0.0;36.0;0.00
00:17:53.000;5.02;0.30;77;0.0;36.0;0.00
00:18:30.000;5.01;0.31;80;0.0;36.0;0.00
00:19:07.000;5.01;0.30;83;0.0;36.0;0.00
00:19:44.000;5.01;0.30;86;0.0;36.0;0.00
00:20:21.000;5.00;0.30;89;0.0;36.0;0.00
00:20:58.000;5.00;0.30;92;0.0;36.0;0.00
00:21:35.000;4.99;0.31;95;0.0;36.0;0.00
00:22:12.000;4.99;0.30;98;0.0;36.0;0.00
00:22:49.000;4.99;0.31;101;0.0;36.0;0.00
00:23:26.000;4.98;0.32;105;0.0;36.0;0.00
00:24:03.000;4.98;0.32;108;0.0;36.0;0.00
00:24:40.000;4.97;0.30;111;0.0;36.0;0.00
00:25:17.000;4.97;0.30;114;0.0;36.0;0.00
00:25:54.000;4.96;0.31;117;0.0;36.0;0.00
00:26:31.000;4.96;0.30;120;0.0;36.0;0.00
00:27:08.000;4.96;0.31;123;0.0;36.0;0.00
00:27:45.000;4.95;0.31;126;0.0;36.0;0.00
00:28:22.000;4.95;0.30;130;0.0;36.0;0.00
00:28:59.000;4.95;0.30;133;0.0;36.0;0.00
00:29:36.000;4.94;0.31;136;0.0;36.0;0.00
00:30:13.000;4.94;0.30;139;0.0;36.0;0.00
00:30:50.000;4.94;0.30;142;0.0;36.0;0.00
00:31:27.000;4.93;0.31;145;0.0;36.0;0.00
00:32:04.000;4.93;0.30;148;0.0;36.0;0.00
00:32:41.000;4.93;0.31;151;0.0;36.0;0.00
00:33:18.000;4.93;0.30;154;0.0;36.0;0.00
00:33:55.000;4.92;0.31;158;0.0;37.0;0.00
00:34:32.000;4.92;0.30;161;0.0;37.0;0.00
00:35:09.000;4.92;0.30;164;0.0;37.0;0.00
00:35:46.000;4.92;0.30;167;0.0;37.0;0.00
00:36:23.000;4.91;0.30;170;0.0;37.0;0.00
00:37:00.000;4.91;0.32;173;0.0;37.0;0.00
00:37:37.000;4.91;0.30;176;0.0;37.0;0.00
00:38:14.000;4.90;0.30;179;0.0;37.0;0.00
00:38:51.000;4.90;0.30;182;0.0;37.0;0.00
00:39:28.000;4.90;0.31;185;0.0;37.0;0.00
00:40:05.000;4.89;0.30;189;0.0;37.0;0.00
00:40:42.000;4.89;0.30;192;0.0;37.0;0.00
00:41:19.000;4.89;0.30;195;0.0;37.0;0.00
00:41:56.000;4.89;0.30;198;0.0;37.0;0.00
00:42:33.000;4.88;0.30;201;0.0;37.0;0.00
00:43:10.000;4.88;0.30;204;0.0;37.0;0.00
00:43:47.000;4.88;0.30;207;0.0;37.0;0.00
00:44:24.000;4.88;0.30;211;0.0;37.0;0.00
00:45:01.000;4.87;0.31;214;0.0;37.0;0.00
00:45:38.000;4.87;0.30;217;0.0;37.0;0.00
00:46:15.000;4.87;0.30;220;0.0;37.0;0.00
00:46:52.000;4.87;0.30;223;0.0;37.0;0.00
00:47:29.000;4.86;0.31;226;0.0;37.0;0.00
00:48:06.000;4.86;0.30;229;0.0;37.0;0.00
00:48:43.000;4.86;0.30;232;0.0;37.0;0.00
00:49:20.000;4.86;0.30;235;0.0;37.0;0.00
00:49:57.000;4.85;0.30;238;0.0;37.0;0.00
00:50:34.000;4.85;0.30;241;0.0;37.0;0.00
00:51:11.000;4.85;0.30;245;0.0;37.0;0.00
00:51:48.000;4.84;0.30;248;0.0;37.0;0.00
00:52:25.000;4.84;0.30;251;0.0;37.0;0.00
00:53:02.000;4.84;0.30;254;0.0;37.0;0.00
00:53:39.000;4.84;0.30;257;0.0;37.0;0.00
00:54:16.000;4.83;0.32;260;0.0;37.0;0.00
00:54:53.000;4.83;0.30;263;0.0;37.0;0.00
00:55:30.000;4.83;0.30;266;0.0;37.0;0.00
00:56:07.000;4.83;0.30;270;0.0;37.0;0.00
00:56:44.000;4.82;0.30;273;0.0;37.0;0.00
00:57:21.000;4.82;0.30;276;0.0;37.0;0.00
00:57:58.000;4.82;0.30;279;0.0;37.0;0.00
00:58:35.000;4.82;0.30;282;0.0;37.0;0.00
00:59:12.000;4.81;0.31;285;0.0;37.0;0.00
00:59:49.000;4.81;0.30;288;0.0;37.0;0.00
01:00:26.000;4.81;0.30;291;0.0;37.0;0.00
01:01:03.000;4.80;0.31;295;0.0;37.0;0.00
01:01:40.000;4.80;0.30;298;0.0;37.0;0.00
01:02:17.000;4.80;0.30;301;0.0;37.0;0.00
01:02:54.000;4.80;0.31;304;0.0;37.0;0.00
01:03:31.000;4.79;0.32;307;0.0;37.0;0.00
01:04:08.000;4.79;0.30;310;0.0;37.0;0.00
01:04:45.000;4.79;0.30;313;0.0;37.0;0.00
01:05:22.000;4.79;0.31;316;0.0;37.0;0.00
01:05:59.000;4.79;0.30;319;0.0;37.0;0.00
01:06:36.000;4.79;0.31;323;0.0;37.0;0.00
01:07:13.000;4.78;0.30;326;0.0;37.0;0.00
01:07:50.000;4.78;0.30;329;0.0;37.0;0.00
01:08:27.000;4.78;0.30;332;0.0;37.0;0.00
01:09:04.000;4.78;0.30;335;0.0;37.0;0.00
01:09:41.000;4.77;0.30;338;0.0;37.0;0.00
01:10:18.000;4.77;0.30;341;0.0;37.0;0.00
01:10:55.000;4.77;0.31;344;0.0;37.0;0.00
01:11:32.000;4.76;0.30;347;0.0;37.0;0.00
01:12:09.000;4.76;0.32;351;0.0;37.0;0.00
01:12:46.000;4.76;0.31;354;0.0;37.0;0.00
01:13:23.000;4.76;0.30;357;0.0;37.0;0.00
01:14:00.000;4.75;0.31;360;0.0;37.0;0.00
01:14:37.000;4.75;0.30;363;0.0;37.0;0.00
01:15:14.000;4.75;0.30;366;0.0;37.0;0.00
01:15:51.000;4.74;0.30;369;0.0;37.0;0.00
01:16:28.000;4.74;0.30;372;0.0;37.0;0.00
01:17:05.000;4.74;0.30;376;0.0;37.0;0.00
01:17:42.000;4.73;0.30;379;0.0;37.0;0.00
01:18:19.000;4.73;0.30;382;0.0;37.0;0.00
01:18:56.000;4.73;0.30;385;0.0;37.0;0.00
01:19:33.000;4.72;0.31;388;0.0;37.0;0.00
01:20:10.000;4.72;0.30;391;0.0;37.0;0.00
01:20:47.000;4.72;0.30;394;0.0;37.0;0.00
01:21:24.000;4.72;0.30;397;0.0;37.0;0.00
01:22:01.000;4.71;0.30;400;0.0;37.0;0.00
01:22:38.000;4.71;0.30;403;0.0;37.0;0.00
01:23:15.000;4.71;0.31;407;0.0;37.0;0.00
01:23:52.000;4.70;0.30;410;0.0;37.0;0.00
01:24:29.000;4.70;0.31;413;0.0;37.0;0.00
01:25:06.000;4.69;0.30;416;0.0;37.0;0.00
01:25:43.000;4.69;0.30;419;0.0;37.0;0.00
01:26:20.000;4.68;0.31;422;0.0;37.0;0.00
01:26:57.000;4.68;0.30;425;0.0;37.0;0.00
01:27:34.000;4.68;0.31;428;0.0;37.0;0.00
01:28:11.000;4.67;0.30;431;0.0;37.0;0.00
01:28:48.000;4.67;0.30;435;0.0;37.0;0.00
01:29:25.000;4.66;0.31;438;0.0;37.0;0.00
01:30:02.000;4.66;0.30;441;0.0;37.0;0.00
01:30:39.000;4.66;0.30;444;0.0;37.0;0.00
01:31:16.000;4.65;0.30;447;0.0;37.0;0.00
01:31:53.000;4.65;0.31;450;0.0;37.0;0.00
01:32:30.000;4.64;0.30;453;0.0;37.0;0.00
01:33:07.000;4.64;0.30;456;0.0;37.0;0.00
01:33:44.000;4.64;0.30;459;0.0;37.0;0.00
01:34:21.000;4.63;0.30;463;0.0;37.0;0.00
01:34:58.000;4.63;0.31;466;0.0;37.0;0.00
01:35:35.000;4.63;0.30;469;0.0;37.0;0.00
01:36:12.000;4.62;0.30;472;0.0;37.0;0.00
01:36:49.000;4.62;0.30;475;0.0;37.0;0.00
01:37:26.000;4.62;0.31;478;0.0;37.0;0.00
01:38:03.000;4.61;0.30;481;0.0;37.0;0.00
01:38:40.000;4.61;0.31;484;0.0;37.0;0.00
01:39:17.000;4.61;0.31;487;0.0;37.0;0.00
01:39:54.000;4.60;0.30;491;0.0;37.0;0.00
01:40:31.000;4.60;0.31;494;0.0;37.0;0.00
01:41:08.000;4.59;0.31;497;0.0;37.0;0.00
01:41:45.000;4.59;0.32;500;0.0;37.0;0.00
01:42:22.000;4.59;0.30;503;0.0;37.0;0.00
01:42:59.000;4.58;0.31;506;0.0;37.0;0.00
01:43:36.000;4.58;0.30;509;0.0;37.0;0.00
01:44:13.000;4.58;0.30;512;0.0;37.0;0.00
01:44:50.000;4.57;0.31;516;0.0;37.0;0.00
01:45:27.000;4.57;0.32;519;0.0;37.0;0.00
01:46:04.000;4.57;0.31;522;0.0;37.0;0.00
01:46:41.000;4.56;0.31;525;0.0;37.0;0.00
01:47:18.000;4.56;0.30;528;0.0;37.0;0.00
01:47:55.000;4.56;0.30;531;0.0;37.0;0.00
01:48:32.000;4.55;0.32;534;0.0;37.0;0.00
01:49:09.000;4.55;0.31;537;0.0;37.0;0.00
01:49:46.000;4.55;0.30;540;0.0;37.0;0.00
01:50:23.000;4.54;0.31;543;0.0;37.0;0.00
01:51:00.000;4.54;0.31;547;0.0;37.0;0.00
01:51:37.000;4.54;0.30;550;0.0;37.0;0.00
01:52:14.000;4.53;0.30;553;0.0;37.0;0.00
01:52:51.000;4.53;0.31;556;0.0;37.0;0.00
01:53:28.000;4.53;0.31;559;0.0;37.0;0.00
01:54:05.000;4.52;0.30;562;0.0;37.0;0.00
01:54:42.000;4.52;0.31;565;0.0;37.0;0.00
01:55:19.000;4.52;0.31;568;0.0;37.0;0.00
01:55:56.000;4.51;0.31;572;0.0;37.0;0.00
01:56:33.000;4.51;0.30;575;0.0;37.0;0.00
01:57:10.000;4.51;0.31;578;0.0;37.0;0.00
01:57:47.000;4.51;0.30;581;0.0;37.0;0.00
01:58:24.000;4.50;0.30;584;0.0;37.0;0.00
01:59:01.000;4.50;0.30;587;0.0;37.0;0.00
01:59:38.000;4.50;0.31;590;0.0;37.0;0.00
02:00:15.000;4.49;0.30;593;0.0;37.0;0.00
02:00:52.000;4.49;0.30;596;0.0;37.0;0.00
02:01:29.000;4.49;0.30;599;0.0;37.0;0.00
02:02:06.000;4.48;0.31;603;0.0;37.0;0.00
02:02:43.000;4.48;0.30;606;0.0;37.0;0.00
02:03:20.000;4.48;0.30;609;0.0;37.0;0.00
02:03:57.000;4.47;0.30;612;0.0;37.0;0.00
02:04:34.000;4.47;0.30;615;0.0;37.0;0.00
02:05:11.000;4.47;0.30;618;0.0;37.0;0.00
02:05:48.000;4.46;0.30;621;0.0;37.0;0.00
02:06:25.000;4.46;0.30;624;0.0;37.0;0.00
02:07:02.000;4.46;0.31;627;0.0;37.0;0.00
02:07:39.000;4.45;0.30;631;0.0;37.0;0.00
02:08:16.000;4.45;0.30;634;0.0;37.0;0.00
02:08:53.000;4.45;0.31;637;0.0;37.0;0.00
02:09:30.000;4.44;0.30;640;0.0;37.0;0.00
02:10:07.000;4.44;0.31;643;0.0;37.0;0.00
02:10:44.000;4.44;0.30;646;0.0;37.0;0.00
02:11:21.000;4.43;0.30;649;0.0;37.0;0.00
02:11:58.000;4.43;0.31;653;0.0;37.0;0.00
02:12:35.000;4.42;0.31;656;0.0;37.0;0.00
02:13:12.000;4.42;0.30;659;0.0;37.0;0.00
02:13:49.000;4.42;0.30;662;0.0;37.0;0.00
02:14:26.000;4.41;0.30;665;0.0;37.0;0.00
02:15:03.000;4.41;0.31;668;0.0;37.0;0.00
02:15:40.000;4.40;0.31;671;0.0;37.0;0.00
02:16:17.000;4.40;0.31;674;0.0;37.0;0.00
02:16:54.000;4.39;0.31;678;0.0;37.0;0.00
02:17:31.000;4.39;0.30;681;0.0;37.0;0.00
02:18:08.000;4.38;0.30;684;0.0;37.0;0.00
02:18:45.000;4.38;0.30;687;0.0;37.0;0.00
02:19:22.000;4.37;0.30;690;0.0;37.0;0.00
02:19:59.000;4.37;0.30;693;0.0;37.0;0.00
02:20:36.000;4.36;0.31;696;0.0;37.0;0.00
02:21:13.000;4.36;0.30;699;0.0;37.0;0.00
02:21:50.000;4.35;0.30;702;0.0;37.0;0.00
02:22:27.000;4.34;0.30;705;0.0;37.0;0.00
02:23:04.000;4.34;0.30;709;0.0;37.0;0.00
02:23:41.000;4.33;0.30;712;0.0;37.0;0.00
02:24:18.000;4.33;0.30;715;0.0;37.0;0.00
02:24:55.000;4.32;0.30;718;0.0;37.0;0.00
02:25:32.000;4.31;0.31;721;0.0;37.0;0.00
02:26:09.000;4.31;0.30;724;0.0;37.0;0.00
02:26:46.000;4.30;0.30;727;0.0;37.0;0.00
02:27:23.000;4.29;0.30;730;0.0;37.0;0.00
02:28:00.000;4.29;0.31;733;0.0;37.0;0.00
02:28:37.000;4.28;0.31;736;0.0;37.0;0.00
02:29:14.000;4.27;0.31;740;0.0;37.0;0.00
02:29:51.000;4.26;0.30;743;0.0;37.0;0.00
02:29:58.000;4.26;0.31;743;0.0;37.0;0.00